acc_x, acc_y, angular_z, stamp, 
-0.02309340238571167, -0.01319432258605957, -2.5492863754964484e-11, 17279875833920158050.005700290203094482, -0.007601320743560791, -5.352077594792283e-11, 17279875834220057150.03455233573913574, -0.003910660743713379, -8.563189728134814e-11, 1727987583452443274-0.0068152546882629395, -0.02526944875717163, -9.266007079700686e-11, 17279875834846683800.014752030372619629, -0.021633803844451904, -1.2704895247976872e-10, 1727987583511929634-0.006757259368896484, 0.014283061027526855, -1.1198581031390036e-10, 17279875835417943900.009384632110595703, -0.01453167200088501, 1.0310908046292174e-06, 17279875835706954050.007429182529449463, 0.012305021286010742, 9.603703575054994e-07, 1727987583601725464-0.019647717475891113, 0.003279566764831543, 9.963450551931953e-07, 17279875836316360510.016287267208099365, 0.012173771858215332, -2.006615729918222e-11, 17279875836618694070.016185462474822998, 0.010208547115325928, -8.815163529433445e-12, 1727987583693082043-0.00011307001113891602, 0.018938958644866943, 1.746407089793501e-12, 17279875837248253100.02105635404586792, -0.009997367858886719, -1.1208345014682369e-06, 1727987583751415165-0.009972989559173584, -0.006495952606201172, -9.876693545610355e-07, 1727987583781591665-0.004841268062591553, -0.011995494365692139, -1.002488409535069e-06, 1727987583811323516-0.010354995727539062, 0.018442213535308838, -1.4936860863222627e-06, 17279875838312770900.010948717594146729, -0.008734285831451416, -7.440554248404665e-07, 17279875838713476790.0014704465866088867, -0.005374133586883545, -9.986264497540181e-07, 1727987583901201605-0.0327109694480896, -0.02151554822921753, -9.512292935668815e-07, 1727987583932545797-0.004035770893096924, 0.007306814193725586, -9.333703128975559e-07, 17279875839644874940.013953626155853271, 0.010852038860321045, -3.846066483504108e-10, 17279875839910490950.004920244216918945, -0.023349344730377197, -3.5860232896396044e-10, 1727987584020969908-0.005915701389312744, -0.032224297523498535, -3.2341658931187115e-10, 17279875840509359710.006866455078125, -0.0069307684898376465, -2.249151028338677e-10, 1727987584080836662-0.01088625192642212, -0.003314375877380371, -1.5273873828606637e-10, 17279875841108001320.030591070652008057, 0.007359623908996582, -1.2361505508413004e-10, 17279875841408263310.010798335075378418, -0.017898619174957275, -1.28483755561705e-10, 1727987584172778300-0.008849799633026123, -0.014264523983001709, -1.3721349190251962e-10, 1727987584202701746-0.0232924222946167, 0.02167189121246338, -1.1123101214433092e-10, 17279875842305979390.0002944469451904297, -0.0018041133880615234, -9.466675007510936e-11, 1727987584260599174-0.006944119930267334, 0.0016164779663085938, -1.0301116966619401e-06, 17279875842895334790.021817564964294434, -0.0056653618812561035, -9.642808060645588e-07, 1727987584320443558-0.019418776035308838, 0.01749473810195923, -1.1986175203662783e-10, 17279875843504006320.004225492477416992, -0.007766664028167725, -6.36982192246159e-11, 17279875843804000410.02592390775680542, 0.004712164402008057, -9.316937043414366e-07, 17279875844123872770.020515739917755127, -0.0006912946701049805, -3.0961395070415643e-12, 1727987584440309261-0.008581340312957764, -0.013211250305175781, -9.97116152955434e-07, 1727987584470199712-0.015844345092773438, 0.008476555347442627, -8.497740002121595e-11, 1727987584500158191-0.0013058781623840332, -0.002185821533203125, -4.89477957285036e-11, 17279875845301236480.02009981870651245, -0.004062175750732422, -5.596701231204563e-11, 17279875845600561800.010807216167449951, -0.01833653450012207, -9.796111367540008e-07, 1727987584590481871-0.007376968860626221, -0.021743953227996826, -9.832671182441976e-07, 1727987584620794744-0.0038867592811584473, -0.003428637981414795, -9.29234698805383e-07, 17279875846528683110.006801903247833252, 0.002296149730682373, -1.101281604814844e-06, 17279875846799290650.0015631914138793945, -0.004506886005401611, 9.227293433257878e-11, 17279875847087942150.012122094631195068, 0.003004133701324463, 1.8124750297682078e-10, 1727987584739740249-0.005907654762268066, -0.005631089210510254, 2.8699041412637206e-10, 1727987584769705748-0.004226028919219971, -0.016210198402404785, 3.5659532672844553e-10, 17279875847996529890.009984970092773438, -0.01610732078552246, 4.1201957726044857e-10, 17279875848296261780.018515050411224365, -0.01586228609085083, 9.67877306140271e-07, 17279875848604349770.0036998391151428223, 0.04186123609542847, 8.030173856294691e-10, 1727987584891494429-0.014671802520751953, 0.04542398452758789, 9.895518378028086e-10, 1727987584919557033-0.0038848519325256348, 0.003764510154724121, 7.835241635838839e-10, 17279875849493903810.024829745292663574, 0.0015906095504760742, 5.309811509027304e-10, 17279875849793833510.02646571397781372, -0.011347174644470215, -9.95599230533265e-07, 1727987585009307900-0.013364851474761963, -0.009670674800872803, 2.1923257938324694e-10, 17279875850392905290.009997308254241943, -0.016788244247436523, -9.95276738640998e-07, 17279875850692282260.01350027322769165, 0.0012729167938232422, 2.5561865037120394e-10, 17279875851009546210.025921761989593506, -0.014841079711914062, -9.749188638315533e-07, 17279875851315150620.021878957748413086, -0.021928787231445312, 3.8751453846116654e-10, 1727987585159115919-0.01793581247329712, -0.003748774528503418, 5.266917838907626e-10, 17279875851890184500.016085803508758545, 0.01419055461883545, -9.951173101541406e-07, 1727987585218949767-0.023431837558746338, -0.005596578121185303, 4.666111928328695e-10, 17279875852489189670.01956331729888916, -0.027101993560791016, 4.723681924356931e-10, 17279875852780817130.0014783143997192383, 0.027020156383514404, -9.69888168993983e-07, 1727987585308790019-0.009082138538360596, 0.003776729106903076, -9.697973666217918e-07, 17279875853395007130.008996188640594482, 0.010855674743652344, 5.019122809174861e-10, 17279875853707372930.010815203189849854, -0.02329838275909424, 4.746611631937614e-10, 1727987585398601819-0.003699958324432373, 0.0019384026527404785, -9.924786095364902e-07, 1727987585428615127-0.012795567512512207, 0.01631253957748413, 4.882054687033307e-10, 1727987585458561502-0.014327049255371094, 0.03408235311508179, 3.323923548014069e-10, 17279875854884517620.016256392002105713, 0.02835899591445923, 1.570456995743315e-10, 17279875855184756300.012561500072479248, -0.0007109642028808594, -9.775450853396212e-07, 1727987585548962237-0.0002570152282714844, -0.03325170278549194, -9.302929075071787e-07, 1727987585581002005-0.02731919288635254, -0.01901233196258545, -2.4074258573482236e-10, 1727987585608369604-0.00919884443283081, -0.004741966724395752, -2.2671794243176045e-10, 17279875856382505980.002964496612548828, 0.009978294372558594, -0.0006166096674659047, 17279875856681930040.04249465465545654, 0.03891623020172119, 0.003554162213281656, 1727987585698157504-0.5768190026283264, 1.3004201650619507, 0.20126808159774726, 17279875857280513950.12692469358444214, -0.21174722909927368, 0.6108404858273643, 17279875857580628950.28281766176223755, -0.17978274822235107, 0.6234609869450591, 17279875857885534390.34121060371398926, -0.07713049650192261, 0.5667926155792203, 17279875858205459200.2904950976371765, 0.17206543684005737, 0.5613196886157481, 17279875858578627680.382424533367157, 0.1034514307975769, 0.44312089035704566, 1727987585887759039-0.23964393138885498, -0.10143774747848511, 0.48521997351532403, 17279875859177425930.11275863647460938, 0.09122955799102783, 0.5372446155569276, 1727987585948554790-0.0802038311958313, 0.2797473669052124, 0.5276905982211891, 17279875859805620810.3850105404853821, 0.041313350200653076, 0.7366562236391699, 1727987586007596901-0.09292548894882202, 0.35489195585250854, 0.8014125488048471, 17279875860375825570.3404182195663452, 0.07651883363723755, 0.8731122088376032, 17279875860674517930.10025984048843384, -0.33373671770095825, 0.7944123721339379, 17279875860974561240.20966237783432007, -0.4573805332183838, 0.6157800245430188, 1727987586127431845-0.3101188540458679, -0.14021849632263184, 0.4056177974980891, 17279875861575502050.05904203653335571, -0.07950371503829956, 0.32020405814773045, 17279875861892323940.10811692476272583, 0.3080297112464905, 0.3590817593499632, 17279875862207295650.3013917803764343, 0.31787288188934326, 0.5532829600026387, 1727987586247464103-0.015828371047973633, -0.16661137342453003, 0.5596559926141648, 17279875862774423010.12849777936935425, -0.16815131902694702, 0.5892168890928022, 1727987586307383963-0.09394645690917969, 0.28524863719940186, 0.5960173611690388, 17279875863376124350.4216519594192505, -0.00746762752532959, 0.5725681288654246, 17279875863675411580.7722293138504028, -0.02454131841659546, 0.5906170880486326, 17279875863975683020.7726621627807617, 0.17461591958999634, 0.642845006950362, 1727987586428632133-0.006662905216217041, 0.08476787805557251, 0.70242875547812, 1727987586458894428-0.2009904384613037, -0.09015828371047974, 0.7398927227958421, 1727987586487410693-0.42383038997650146, -0.24812984466552734, 0.6409266324591582, 1727987586517193936-0.18170714378356934, -0.07562482357025146, 0.46866268165521285, 1727987586547215446-0.08801478147506714, -0.01303243637084961, 0.4212920603029204, 17279875865772064130.293468713760376, 0.23952215909957886, 0.4052681958326464, 17279875866071616050.2859693765640259, -0.07791495323181152, 0.4150335462849551, 17279875866373835800.35875970125198364, 0.054641127586364746, 0.4851704642022024, 17279875866687813830.02024739980697632, 0.2323458194732666, 0.5763322362873693, 17279875866965853900.07752227783203125, -0.1274503469467163, 0.5108998357303752, 17279875867274096360.04684323072433472, 0.09517401456832886, 0.5391561423394335, 17279875867563637320.5104305744171143, 0.0042681097984313965, 0.4973852346389425, 1727987586786365277-0.11374151706695557, 0.2643805742263794, 0.4930691558590097, 1727987586816252030-0.14377766847610474, -0.1309959888458252, 0.49147776076074784, 17279875868461909620.2143005132675171, 0.0021456480026245117, 0.4951726716160147, 17279875868766453280.5091246962547302, -0.020225703716278076, 0.46561296038106087, 1727987586908789852-0.05031418800354004, 0.060743510723114014, 0.5401952377328514, 17279875869361056460.2688838839530945, -0.0013048648834228516, 0.4900325472914082, 17279875869660847340.08708900213241577, 0.16415363550186157, 0.46947464733478056, 1727987586995977415-0.11582046747207642, -0.026570916175842285, 0.470393996719741, 1727987587025857034-0.051395535469055176, -0.0873328447341919, 0.497212601243135, 17279875870559367920.7309087514877319, 0.16473883390426636, 0.49719323758674416, 1727987587085810136-0.04346805810928345, 0.16483265161514282, 0.4544157583735562, 17279875871168099590.1963692307472229, -0.0019469261169433594, 0.4646701690725292, 1727987587149035420-0.19262856245040894, -0.1564963459968567, 0.5906059304233551, 17279875871757620280.22927165031433105, 0.1562783122062683, 0.5353144595708379, 17279875872056142770.052280426025390625, 0.2965329885482788, 0.513056509320941, 17279875872356060050.35914576053619385, -0.20126628875732422, 0.5015869646045699, 17279875872654778370.038631975650787354, 0.039285242557525635, 0.5284027318337168, 17279875872954161180.1472882628440857, 0.09263467788696289, 0.5011157370681648, 1727987587325430414-0.16361576318740845, 0.07778358459472656, 0.4814938637214757, 17279875873570457290.23348742723464966, 0.02622663974761963, 0.492234500530641, 17279875873885560060.14949041604995728, -0.12941521406173706, 0.5411366562344232, 17279875874153559330.38881415128707886, 0.14361828565597534, 0.4650424060484086, 17279875874451775170.026080191135406494, 0.07221066951751709, 0.49566743031170285, 1727987587475119662-0.005509853363037109, 0.05166041851043701, 0.4911447558019916, 1727987587505087356-0.011440098285675049, 0.12099289894104004, 0.505789608067344, 17279875875350480130.22446727752685547, -0.014244258403778076, 0.5116444337001248, 1727987587564990861-0.10434937477111816, 0.015072941780090332, 0.45658470023004005, 17279875875972359220.47343236207962036, 0.21649086475372314, 0.5074534203097109, 1727987587627212148-0.17644774913787842, -0.04449009895324707, 0.5405710465328158, 17279875876549711700.17157721519470215, -0.14975500106811523, 0.4907201721442867, 17279875876847574810.02955383062362671, 0.054699063301086426, 0.4773460799371075, 17279875877146941550.19975125789642334, 0.3253861665725708, 0.5030219700722115, 17279875877446605440.19718819856643677, -0.015534937381744385, 0.5280850369932143, 17279875877749007200.17974036931991577, -0.23230254650115967, 0.5301629853189809, 17279875878048747790.3794718384742737, 0.6584926843643188, 0.4634291223363221, 1727987587836736007-0.030534207820892334, -0.01677459478378296, 0.5299681681717874, 1727987587864540028-0.19203108549118042, -0.4928508400917053, 0.4928057742699943, 17279875878943954420.5118735432624817, 0.15248113870620728, 0.49966584723279234, 1727987587924371928-0.19606971740722656, 0.564897894859314, 0.4946274469045107, 17279875879543239310.4963717460632324, 0.2680125832557678, 0.4907946551124363, 1727987587984250786-0.22260510921478271, -0.7608994245529175, 0.5038725880897065, 17279875880142477600.5074739456176758, -0.15757793188095093, 0.5117488243061871, 17279875880452671170.2972186207771301, 1.0203269720077515, 0.47934705374205616, 17279875880767263300.3653053641319275, 0.6288667321205139, 0.5263569898944875, 1727987588104256525-0.4330376386642456, -0.3876360058784485, 0.5031503191397907, 17279875881340266510.32826197147369385, -0.606261134147644, 0.526045458841422, 1727987588163950324-0.2056484818458557, 0.012851595878601074, 0.49785552300950237, 17279875881939504420.5006601810455322, 0.37405335903167725, 0.516158641196513, 17279875882238967060.1062157154083252, 0.17837613821029663, 0.5377472857178948, 17279875882538128120.23115724325180054, 0.35896551609039307, 0.5169496230824218, 1727987588284761807-0.10822290182113647, 0.2535834312438965, 0.4456523486212985, 1727987588317060656-0.00955057144165039, 0.11526709794998169, 0.5509512401623412, 17279875883437752750.4410861134529114, -0.4956504702568054, 0.5058690689692461, 17279875883736307440.20681041479110718, -0.12114346027374268, 0.5330722614821309, 17279875884025233970.09285998344421387, 0.30612385272979736, 0.501484503017354, 17279875884324971640.25649577379226685, -0.07190936803817749, 0.447950880283065, 1727987588463456565-0.07714259624481201, 0.0314326286315918, 0.4623020989643006, 17279875884940125740.1856999397277832, -0.006059885025024414, 0.48189710749340614, 1727987588524829964-0.10975480079650879, 0.7510495781898499, 0.4778088127343764, 17279875885567026730.617001473903656, 0.22192543745040894, 0.5935114863617623, 1727987588583326751-0.04156428575515747, -0.17886096239089966, 0.5122506663000631, 17279875886132088510.11718732118606567, 0.2995692491531372, 0.49824507938321133, 17279875886432286040.15072965621948242, 0.7273423671722412, 0.5033035193971379, 1727987588673066494-0.3171316385269165, -0.47223609685897827, 0.48160578601368903, 1727987588703060901-0.10095751285552979, 0.017465293407440186, 0.4814787874303578, 17279875887330298220.6080968379974365, 0.4354251027107239, 0.4341454922200788, 1727987588765131685-0.2515472173690796, -0.28091001510620117, 0.47819064073796985, 17279875887949767620.12210214138031006, -0.15255355834960938, 0.5636802628464583, 17279875888230803130.025300979614257812, 0.22150999307632446, 0.5604073226958828, 17279875888527707380.26575690507888794, -0.033978402614593506, 0.5127554647612038, 1727987588882798975-0.2682560086250305, 0.16495579481124878, 0.490105098848988, 17279875889127333360.002925693988800049, 0.3441937565803528, 0.5091555330275336, 1727987588942723353-0.42631995677948, 0.23420476913452148, 0.512682915786904, 17279875889731629990.3887251615524292, -0.6929957270622253, 0.4604422757512747, 1727987589005653308-0.28991901874542236, 0.44370055198669434, 0.5266795805131188, 17279875890326445070.2731857895851135, 0.6297925710678101, 0.47421087332649325, 17279875890615205540.03201448917388916, -0.2566702365875244, 0.45769918711043195, 17279875890924595030.15595686435699463, -0.6856446862220764, 0.4977604569457797, 1727987589122355731-0.158940851688385, 0.8174358606338501, 0.47699633757682885, 17279875891523573310.3006809949874878, 0.519905149936676, 0.48142798144506604, 1727987589182292930-0.11378967761993408, -0.2649460434913635, 0.46785655972695483, 17279875892130490640.01622486114501953, -0.7435810565948486, 0.4646593056343102, 17279875892449163080.5167320966720581, 0.000598609447479248, 0.5419611302149016, 1727987589272141120-0.16011440753936768, 0.3434814214706421, 0.4778721914988258, 17279875893020784830.09200948476791382, 0.8831961750984192, 0.47018977507096094, 1727987589331064524-0.3482895493507385, 0.12157708406448364, 0.4288913652927978, 17279875893619643250.9572136402130127, -0.061134278774261475, 0.4544304409090526, 1727987589391920467-0.15624123811721802, -0.06192576885223389, 0.42833135015922397, 17279875894218984140.03698819875717163, -0.3579786419868469, 0.3878083487053217, 1727987589453129673-0.2583097815513611, -0.1260761022567749, 0.3822795414737142, 17279875894851629860.06297117471694946, 0.22190624475479126, 0.47752155622929165, 17279875895117177200.06759637594223022, 0.29982179403305054, 0.40087116817628504, 1727987589541672019-0.26667720079421997, 0.0349574089050293, 0.3812790769716797, 17279875895716156560.8773235082626343, 0.3918522596359253, 0.36523053989685933, 17279875896016359940.1320176124572754, -0.06966066360473633, 0.34248399191689094, 1727987589631589677-0.04966390132904053, -0.6980627179145813, 0.29760495019998656, 1727987589661614307-0.18489855527877808, 0.5066429972648621, 0.27758998804618157, 17279875896930710460.4108160138130188, -0.41042059659957886, 0.3078884322995658, 1727987589724021773-0.03335362672805786, -0.13759779930114746, 0.3382573877903524, 1727987589751364735