acc_x, acc_y, angular_z, stamp, 
-0.005628645420074463, 0.017445027828216553, 1.814764088372516e-06, 17279877527893851150.03211390972137451, 0.01562786102294922, 4.713168521935589e-10, 17279877528192164170.04285699129104614, 0.013884007930755615, 2.1349792911732697e-06, 17279877528471410440.008740007877349854, 0.00662541389465332, 1.989357161953339e-06, 17279877528771092310.008638620376586914, 0.013767719268798828, 2.522555708605485e-10, 1727987752899130148-0.016699790954589844, 0.008160829544067383, 1.5737808062962393e-06, 1727987752937017044-0.005937695503234863, -0.0008392333984375, 3.869460399857952e-10, 1727987752967128498-0.020399391651153564, 0.00458759069442749, 3.5337745958371374e-10, 17279877529970727610.02460426092147827, -0.025795936584472656, 2.742507329318023e-10, 1727987753029132598-0.00264132022857666, -0.01857435703277588, 2.285726655540595e-10, 17279877530568955190.009905815124511719, -0.009468495845794678, 1.9965191217221825e-06, 17279877530867519790.004220426082611084, -0.0004023313522338867, 8.888554802910863e-11, 1727987753116710760-0.008469223976135254, 0.021210849285125732, 5.500343600486553e-11, 17279877531466800640.028812110424041748, 0.021080374717712402, 4.2487466710840824e-11, 17279877531765957000.006974339485168457, -0.016665518283843994, 8.977917523579598e-12, 1727987753206622510-0.0043122172355651855, -0.020183205604553223, -3.347779766580791e-11, 1727987753237103773-0.011765778064727783, -0.010846257209777832, -2.2682002342075423e-11, 1727987753268521183-0.0030326247215270996, -0.00872713327407837, 5.341297018192167e-11, 17279877532954498830.009484291076660156, -0.004777133464813232, 1.5138727233149029e-10, 17279877533263767160.0431598424911499, -0.0027012228965759277, -1.9927834386806618e-06, 1727987753356282711-0.002233147621154785, -0.007718026638031006, 5.035647769677449e-10, 17279877533862732310.015349328517913818, 0.014169275760650635, -1.990328188368262e-06, 1727987753416209192-0.013673663139343262, 0.010771572589874268, -1.98612565595969e-06, 1727987753446205573-0.008468329906463623, 0.01974332332611084, 9.61109205151115e-10, 1727987753477135492-0.033684611320495605, 0.005354464054107666, 8.724533185197315e-10, 1727987753509113829-0.015678048133850098, -0.0019634366035461426, -2.209432598376617e-06, 1727987753536080509-0.017270147800445557, 0.00862210988998413, 6.199741894110452e-10, 17279877535660442640.01689845323562622, 0.0010707378387451172, -1.986611517772477e-06, 17279877535960417730.0007483959197998047, 0.00421905517578125, 1.932512806397222e-10, 17279877536260432150.022352159023284912, -0.0051811933517456055, -1.9937961438548802e-06, 1727987753655938594-0.0063915252685546875, 0.0071038007736206055, -1.9795150997120435e-06, 1727987753686051589-0.024137020111083984, -0.0021944642066955566, -2.3834939112621564e-10, 17279877537176465410.020852208137512207, 0.009997725486755371, -3.044945812042748e-10, 1727987753748256196-0.004365146160125732, -0.010065257549285889, -4.3363221005557134e-10, 1727987753775903286-0.009645521640777588, -0.013731837272644043, -1.9909655510404972e-06, 1727987753805847010-0.0024652481079101562, 0.009627223014831543, -1.992214791770572e-06, 1727987753835771130-0.005928456783294678, -0.026405751705169678, -2.9759001851320555e-10, 17279877538658605390.0015270113945007324, -0.017454326152801514, -2.3010994918358365e-10, 17279877538958206000.005315899848937988, 0.011348843574523926, -1.412963988851269e-10, 1727987753925878808-0.01246732473373413, -0.0029395222663879395, -5.6563937183978185e-11, 1727987753957168679-0.021104812622070312, 0.015116631984710693, 2.3352087465738032e-11, 1727987753987372058-0.028780996799468994, 0.012452304363250732, 0.00027929800212321586, 17279877540157557020.02125340700149536, -0.021208107471466064, 0.0010613900036097077, 17279877540457445080.7537134885787964, 0.6143497228622437, 0.10619651368237688, 17279877540757032931.4695466756820679, 0.13920730352401733, 0.2977978967065597, 17279877541057243880.4664241075515747, 0.027127444744110107, 0.3107296250491062, 17279877541357131070.4494290351867676, -0.12394595146179199, 0.32968461389553694, 17279877541657636280.6630555391311646, -0.0030281543731689453, 0.3779864165675439, 17279877541973684660.34256744384765625, 0.5629824995994568, 0.5402727731550082, 17279877542248844620.45572441816329956, 0.40653324127197266, 0.5748715202749894, 17279877542548269860.4778885245323181, -0.17401134967803955, 0.6498253299826031, 17279877542848040420.44121450185775757, 0.4137647747993469, 0.7036176482731541, 17279877543146707841.0885660648345947, 0.5779435634613037, 0.7864969944241804, 17279877543446962270.08939981460571289, -0.10371601581573486, 0.8972566215908913, 17279877543746143431.033034324645996, -0.15656203031539917, 0.9257819913016302, 17279877544052980230.1641269326210022, -0.01797175407409668, 0.9592585633933852, 17279877544365318130.7834622263908386, 0.29298973083496094, 1.1277411445481027, 17279877544645366430.3149678707122803, 0.14018994569778442, 1.1110707504974675, 17279877544943707440.9807653427124023, -0.2039312720298767, 1.1351358499061701, 17279877545243958390.29037243127822876, 0.2733549475669861, 1.0737249648052853, 17279877545543608230.6045687794685364, 0.7500293254852295, 1.0545444908823263, 1727987754584346011-0.32898086309432983, 0.5075547099113464, 1.0571615986604024, 1727987754614267053-0.015557408332824707, 0.25691598653793335, 1.0361450732398532, 17279877546446135850.0764879584312439, 0.407013475894928, 0.9843128221352612, 1727987754677560527-0.3757297992706299, 0.2130032777786255, 1.2069578344677612, 1727987754704219290-0.7349328994750977, -0.02419227361679077, 1.0681003939708593, 17279877547340041730.2348964810371399, 0.30406659841537476, 1.1059009450333326, 1727987754764096789-0.5772835612297058, 0.28114449977874756, 1.113368751253599, 17279877547939968670.4406700134277344, -0.12235850095748901, 1.0746639854190672, 1727987754823921161-0.1740913987159729, 0.36896950006484985, 1.0444440296573687, 1727987754854142585-0.30115294456481934, 0.5027410984039307, 1.038420981753118, 1727987754885276353-0.1963651180267334, 0.17725306749343872, 1.0139424614589168, 17279877549168093080.35950183868408203, -0.2576521039009094, 1.1881784092789143, 1727987754944180719-0.5412853956222534, 0.394408643245697, 1.1163524264334466, 17279877549736390600.265053927898407, 0.81999272108078, 1.0811161261014353, 1727987755003621104-0.45316600799560547, 0.43898773193359375, 1.0841063470824959, 17279877550335363020.3881520628929138, 0.1654861569404602, 1.13288602965905, 1727987755062495160-0.8125749826431274, 0.35888200998306274, 1.0286825031890672, 17279877550936732340.4712933301925659, -0.0981987714767456, 1.0161574394797641, 1727987755125740609-0.4820404052734375, 0.011996746063232422, 1.1368566602371375, 17279877551551636730.6204302906990051, -0.1495192050933838, 1.1868443764235528, 1727987755183282546-0.12477701902389526, 0.293404757976532, 1.1180508431856615, 1727987755213172996-0.1683616042137146, 0.2876795530319214, 0.9971257255741071, 1727987755235306558-0.10889327526092529, -0.10842061042785645, 1.2062920097272498, 17279877552630929020.072018563747406, 0.2763993740081787, 1.091128032053349, 17279877552930256480.3304835557937622, 0.41237956285476685, 1.101831057974439, 1727987755323008193-0.4575478434562683, 0.5502609014511108, 1.0809232451870083, 17279877553529343480.3615138530731201, 0.08982998132705688, 1.057215019088832, 1727987755382941572-0.5468778014183044, 0.31946492195129395, 1.0817732779990425, 1727987755413318232-0.06998348236083984, 0.05312293767929077, 1.004467347053221, 17279877554464116530.17294949293136597, 0.34279078245162964, 1.2761205736489813, 1727987755472824128-0.10078811645507812, -0.2664310932159424, 1.1317966986082164, 17279877555027109540.25690460205078125, -0.11744529008865356, 1.1360694353322975, 1727987755532615373-0.022090673446655273, 0.5180450081825256, 1.0920188346974866, 1727987755562665598-0.09689432382583618, 0.2343670129776001, 1.156634487439819, 1727987755590525700-0.31119608879089355, 0.43264544010162354, 1.0774073290169386, 1727987755620501504-0.054507315158843994, 0.5221336483955383, 1.009887073498742, 1727987755653671937-0.09029310941696167, 0.3436981439590454, 1.0533622087117147, 17279877556856188620.024902760982513428, 0.15894919633865356, 1.204780933118901, 17279877557223398040.14686381816864014, 0.13922983407974243, 1.10953024321697, 1727987755752293753-0.3400496244430542, 0.36978501081466675, 1.1019714090490218, 17279877557822941420.5076032280921936, 0.7151252627372742, 1.0447534090590016, 1727987755813722004-0.33509594202041626, -0.049289703369140625, 1.025990786277711, 17279877558453214600.26979929208755493, -0.24423396587371826, 1.2351320283542477, 1727987755872128694-0.4193057417869568, 0.5295107960700989, 1.116480775827198, 17279877559020616350.6488767266273499, -0.0960073471069336, 1.1324360824918853, 1727987755931980931-0.23635631799697876, 0.2788807153701782, 1.1126830064816289, 17279877559619217610.023546040058135986, 0.6013497114181519, 1.09025705620041, 1727987755991892087-0.2991611361503601, -0.1738903522491455, 1.090247905809448, 17279877560218441790.031588852405548096, 0.5665478706359863, 1.040002557621029, 1727987756053420561-0.3004148602485657, 0.5476320385932922, 1.0541132778735787, 17279877560848389300.31830936670303345, -0.059334516525268555, 1.240919731068285, 1727987756111744975-0.13185977935791016, -0.07592689990997314, 1.1249131884288974, 17279877561415956090.11483186483383179, 0.4369107484817505, 1.1296427679607515, 1727987756170783555-0.2602074146270752, 0.09185671806335449, 1.108500641126838, 1727987756200527583-0.11424416303634644, 0.38802605867385864, 1.1103881990133675, 1727987756230497919-0.21020430326461792, 0.7355072498321533, 1.0648667135704775, 1727987756261474349-0.07207256555557251, -0.03341317176818848, 1.0148171226442568, 1727987756293546865-0.24526375532150269, -0.13815391063690186, 1.1702484968322167, 17279877563214530640.5875709056854248, 0.2604694366455078, 0.9829704032504314, 1727987756366314243-0.125954270362854, 0.07787030935287476, 1.2476852901481121, 17279877564017519050.018361926078796387, 0.261981725692749, 1.1182571716780076, 17279877564311864300.03045964241027832, 0.36941879987716675, 1.0569233447081268, 17279877564943450920.5186077356338501, -0.13529890775680542, 1.1140293543524467, 1727987756620870951-0.31139689683914185, 0.0021995902061462402, 1.0768156422340975, 1727987756650824237-3.118293285369873, -0.016459524631500244, 1.081220015458056, 1727987756680706962-2.9290318489074707, 0.06145757436752319, 1.0215620077753054, 1727987756710618591-1.1336723566055298, -0.49776506423950195, 0.8890119504740747, 1727987756740342817-2.809551954269409, -0.10199534893035889, 0.5041181871007168, 17279877567737273080.4953078627586365, -0.7619152665138245, 0.3095858330109309, 1727987756800586731-0.10068798065185547, -0.46487003564834595, 0.05038634826616202, 17279877568304265540.578446090221405, -0.029988408088684082, -0.019503602549143455, 1727987756860414911-0.1792597770690918, -0.024647891521453857, -0.04754158520040903, 17279877568903351390.01301509141921997, -0.2589987516403198, -0.02762300670256175, 1727987756920335817-0.3686218857765198, -0.06388068199157715, 0.01028145335974044, 17279877569502781910.1455499529838562, -0.08224654197692871, 0.02303393859946312, 1727987756981849275-0.04303622245788574, 0.006558418273925781, -0.00841565916322723, 17279877570134162650.07893162965774536, -0.048370361328125, -0.013518674186837977, 1727987757040100350-0.03758978843688965, -0.07240086793899536, 0.006020775647239039, 17279877570700614720.08363711833953857, -0.052882373332977295, 0.001769821925187819, 1727987757100001272-0.08341485261917114, -0.224617600440979, -0.0049506033262093855, 1727987757130016833-0.1635311245918274, -0.15112799406051636, 0.00034833723896037703, 1727987757159877446-0.04882162809371948, -0.09039974212646484, 0.004773803130035981, 1727987757189874402-0.0794064998626709, -0.07564371824264526, -0.0021782962734461925, 1727987757221560465-0.005513489246368408, -0.06290698051452637, -0.0012034714103281888, 17279877572525397860.09118646383285522, -0.030677974224090576, 0.00136146749633688, 17279877572797268810.007791757583618164, -0.0986742377281189, -0.0010644590801671874, 1727987757309769754-0.0317651629447937, -0.07168036699295044, 0.0008864232003481942, 1727987757339591473-0.06002843379974365, -0.061273157596588135, 0.0019438479810822004, 1727987757369594578-0.06683367490768433, -0.13626378774642944, -0.0027550949081764486, 1727987757398509109-0.09559023380279541, -0.13451236486434937, -0.001193686248833177, 1727987757429717399-0.043334126472473145, -0.09697693586349487, 0.0020104583355467025, 17279877574613066390.004941761493682861, -0.07930731773376465, 0.0001801645913041608, 1727987757489425188-0.014885187149047852, -0.07395070791244507, -0.0017787532225287939, 17279877575193321850.0010753870010375977, -0.06507474184036255, 0.0005264718153419133, 1727987757549277463-0.02208387851715088, -0.05955004692077637, -0.0010686268760503092, 1727987757579201796-0.0510522723197937, -0.10082745552062988, 0.0007052572211384499, 1727987757609162330-0.07855337858200073, -0.10457479953765869, 0.001940770694266515, 1727987757639167585-0.03557175397872925, -0.07922697067260742, -0.0008749283458740565, 1727987757669551331-0.04770505428314209, -0.1078307032585144, -0.0006730994092574675, 1727987757701297718-0.044017016887664795, -0.10417848825454712, 0.0024868454649046227, 1727987757729004683-0.03710901737213135, -0.08819013833999634, 0.001061108971893811, 1727987757758887836-0.006815135478973389, -0.06982100009918213, -0.0005304022700402902, 17279877577888916120.002426743507385254, -0.08038967847824097, -0.001229582983718043, 17279877578191890750.023948729038238525, 0.0057146549224853516, 0.0001623729126498324, 1727987757848902303-0.04704099893569946, -0.06701761484146118, 0.000523394593701314, 1727987757878967252-0.06563156843185425, -0.10476541519165039, 0.0006933271137617464, 1727987757909357071-0.044572412967681885, -0.09584379196166992, -0.00098652812333692, 1727987757941741531-0.035363197326660156, -0.07923388481140137, -0.0005298096303678308, 1727987757978586610-0.04787987470626831, -0.10093158483505249, 0.0012779036128345554, 1727987758007504998-0.04781293869018555, -0.09015285968780518, 0.00033933149904205676, 1727987758038419938-0.04491215944290161, -0.11735856533050537, -0.0008509097255847874, 1727987758069802478-0.0127943754196167, -0.10809457302093506, -0.000844322535248105, 1727987758101322532-0.014235377311706543, -0.12616240978240967, -0.001384420106790007, 1727987758128317162-0.042837679386138916, -0.12122410535812378, 0.00034555050078015646, 1727987758158245140-0.03220367431640625, -0.06621754169464111, 0.00016526678854173385, 1727987758188185966-0.04183995723724365, -0.07719838619232178, -0.00018416820086940647, 1727987758218126469-0.03626394271850586, -0.0879163146018982, -0.0003596170210305416, 1727987758248126444-0.04679054021835327, -0.09688794612884521, -4.976659722340009e-06, 1727987758278070825-0.031672537326812744, -0.0985763669013977, 0.00033381578367806206, 1727987758309316681-0.049611687660217285, -0.0952797532081604, -0.0005066343856234559, 1727987758341258211-0.045862555503845215, -0.10435259342193604, -0.0006025056702282421, 1727987758368018098-0.03653353452682495, -0.0971212387084961, -4.989071540346995e-06, 1727987758397911494-0.019666731357574463, -0.10053998231887817, 0.0003521830595436786, 17279877584278659421.1314958333969116, 0.27427810430526733, 0.023250665653527996, 17279877584580230210.6789276599884033, -0.12603461742401123, 0.19697982930614674, 17279877584878613210.7970177531242371, 0.29830271005630493, 0.3080870400349797, 17279877585178648330.23219966888427734, 0.04100346565246582, 0.34887249697367057, 1727987758549292451